stair.thisTrialN,stair.stepSize,stair.intensity,thisRow.t,notes,trial.started,fixation.started,fixation.stopped,grating.started,key_resp.started,grating.stopped,trial.stopped,corrAns,tilt,key_resp.corr,stair.response,key_resp.rt,participant,session,date,expName,expVersion,psychopyVersion,frameRate,expStart,
0,2,10.0,0.004215100008877926,,0.0019640000100480393,0.004215100008877926,0.5039850000030128,0.5039850000030128,0.5039850000030128,0.8037617000081809,1.2268703000008827,left,-10.0,1,1,0.716008100003819,1,001,2025-09-03_11h47.19.107,adaptive__staircase,,2025.1.1,59.988974028165956,2025-09-03 11h47.29.033249 +0530,
1,2,8.0,1.2370768999971915,,1.2269994000089355,1.2370768999971915,1.737380500009749,1.737380500009749,1.737380500009749,2.0372984999994515,2.404574900006992,left,-8.0,1,1,0.6557744000019738,1,001,2025-09-03_11h47.19.107,adaptive__staircase,,2025.1.1,59.988974028165956,2025-09-03 11h47.29.033249 +0530,
2,2,6.0,2.420445399999153,,2.4049069000029704,2.420445399999153,2.920716300010099,2.904115199999069,2.904115199999069,3.203925599998911,3.521056800003862,left,-6.0,1,1,0.6020250000001397,1,001,2025-09-03_11h47.19.107,adaptive__staircase,,2025.1.1,59.988974028165956,2025-09-03 11h47.29.033249 +0530,
3,2,4.0,3.537046299999929,,3.5213890000013635,3.537046299999929,4.037183799999184,4.020532100010314,4.020532100010314,4.3205050000105985,4.5706586000014795,right,4.0,1,1,0.5461129999894183,1,001,2025-09-03_11h47.19.107,adaptive__staircase,,2025.1.1,59.988974028165956,2025-09-03 11h47.29.033249 +0530,
4,2,2.0,4.587168199999724,,4.570834099999047,4.587168199999724,5.087144800010719,5.0704346999991685,5.0704346999991685,5.370284700009506,6.037840800010599,left,-2.0,1,1,0.951704899998731,1,001,2025-09-03_11h47.19.107,adaptive__staircase,,2025.1.1,59.988974028165956,2025-09-03 11h47.29.033249 +0530,
5,2,1.0,6.053890600000159,,6.038121000005049,6.053890600000159,6.553899400008959,6.537077500004671,6.537077500004671,6.837142300006235,7.104242100002011,right,1.0,1,1,0.55155950000335,1,001,2025-09-03_11h47.19.107,adaptive__staircase,,2025.1.1,59.988974028165956,2025-09-03 11h47.29.033249 +0530,
6,2,1.0,7.1205005000083474,,7.104474500010838,7.1205005000083474,7.620620500005316,7.603981100008241,7.603981100008241,7.90393810000387,8.171032800004468,right,1.0,1,1,0.5557706999970833,1,001,2025-09-03_11h47.19.107,adaptive__staircase,,2025.1.1,59.988974028165956,2025-09-03 11h47.29.033249 +0530,
7,2,1.0,8.18675200000871,,8.171446799999103,8.18675200000871,8.68708930000139,8.67054370000551,8.67054370000551,8.970199500006856,9.136910100001842,right,1.0,1,1,0.4562278000084916,1,001,2025-09-03_11h47.19.107,adaptive__staircase,,2025.1.1,59.988974028165956,2025-09-03 11h47.29.033249 +0530,
8,1,1.0,9.15363939999952,,9.137049900004058,9.15363939999952,9.65395069999795,9.637113999997382,9.637113999997382,9.936854200001108,10.087411800006521,left,-1.0,0,0,0.4389457999932347,1,001,2025-09-03_11h47.19.107,adaptive__staircase,,2025.1.1,59.988974028165956,2025-09-03 11h47.29.033249 +0530,
9,1,2.0,10.103571600004216,,10.087661300000036,10.103571600004216,10.603758600002038,10.587126700003864,10.587126700003864,10.886962700009462,11.254070499999216,right,2.0,1,1,0.6562813999917125,1,001,2025-09-03_11h47.19.107,adaptive__staircase,,2025.1.1,59.988974028165956,2025-09-03 11h47.29.033249 +0530,
10,1,2.0,11.270206600005622,,11.254340200001025,11.270206600005622,11.770243600010872,11.753530500005581,11.753530500005581,12.053427200007718,12.270878299998003,left,-2.0,1,1,0.5012014000094496,1,001,2025-09-03_11h47.19.107,adaptive__staircase,,2025.1.1,59.988974028165956,2025-09-03 11h47.29.033249 +0530,
11,1,2.0,12.2867469000048,,12.271152700006496,12.2867469000048,12.786781100003282,12.770286300001317,12.770286300001317,13.069922800001223,13.3039795000077,right,2.0,1,1,0.531531200002064,1,001,2025-09-03_11h47.19.107,adaptive__staircase,,2025.1.1,59.988974028165956,2025-09-03 11h47.29.033249 +0530,
12,1,1.0,13.32021160000295,,13.304339100010111,13.32021160000295,13.820225900009973,13.803500100009842,13.803500100009842,14.103322399998433,14.187243100008345,left,-1.0,1,1,0.3786283000081312,1,001,2025-09-03_11h47.19.107,adaptive__staircase,,2025.1.1,59.988974028165956,2025-09-03 11h47.29.033249 +0530,
13,0.5,1.0,14.203380100007053,,14.187472600009642,14.203380100007053,14.703690399997868,14.68674610000744,14.68674610000744,14.986665500007803,15.587151800005813,left,-1.0,0,0,0.8840596999943955,1,001,2025-09-03_11h47.19.107,adaptive__staircase,,2025.1.1,59.988974028165956,2025-09-03 11h47.29.033249 +0530,
14,0.5,1.5,15.603367700008675,,15.587404100006097,15.603367700008675,16.104046599997673,16.086631800004398,16.086631800004398,16.38648660000763,17.319900800008327,right,1.5,1,1,1.230485599997337,1,001,2025-09-03_11h47.19.107,adaptive__staircase,,2025.1.1,59.988974028165956,2025-09-03 11h47.29.033249 +0530,
15,0.5,1.5,17.336571500010905,,17.32007080000767,17.336571500010905,17.836660700006178,17.81999080000969,17.81999080000969,18.119772500009276,18.33667570000398,left,-1.5,1,1,0.5147702999965986,1,001,2025-09-03_11h47.19.107,adaptive__staircase,,2025.1.1,59.988974028165956,2025-09-03 11h47.29.033249 +0530,
16,0.5,1.5,18.353118500002893,,18.336859200004255,18.353118500002893,18.853375100006815,18.83669860000373,18.83669860000373,19.136532200005604,19.3702287000051,right,1.5,1,1,0.5311881999950856,1,001,2025-09-03_11h47.19.107,adaptive__staircase,,2025.1.1,59.988974028165956,2025-09-03 11h47.29.033249 +0530,
17,0.5,1.0,19.386493099998916,,19.370500300006825,19.386493099998916,19.88664680000511,19.869868000008864,19.869868000008864,20.169680799997877,20.303384900005767,left,-1.0,1,1,0.42858130000240635,1,001,2025-09-03_11h47.19.107,adaptive__staircase,,2025.1.1,59.988974028165956,2025-09-03 11h47.29.033249 +0530,
18,0.5,1.0,20.31939410000632,,20.303631700007827,20.31939410000632,20.81971350000822,20.803051399998367,20.803051399998367,21.103034900006605,21.18661950000387,right,1.0,1,1,0.3759185999952024,1,001,2025-09-03_11h47.19.107,adaptive__staircase,,2025.1.1,59.988974028165956,2025-09-03 11h47.29.033249 +0530,
19,0.5,1.0,21.20309540000744,,21.186814900007448,21.20309540000744,21.703204800011008,21.68654989999777,21.68654989999777,21.986373599997023,22.17029029999685,right,1.0,0,0,0.47179789999790955,1,001,2025-09-03_11h47.19.107,adaptive__staircase,,2025.1.1,59.988974028165956,2025-09-03 11h47.29.033249 +0530,
20,0.5,1.5,22.186205400008475,,22.170557999997982,22.186205400008475,22.686413500006893,22.669867400007206,22.669867400007206,22.969645200006198,24.103480200006743,right,1.5,1,1,1.4171975999925053,1,001,2025-09-03_11h47.19.107,adaptive__staircase,,2025.1.1,59.988974028165956,2025-09-03 11h47.29.033249 +0530,
21,0.5,1.5,24.119677599999704,,24.103774000002886,24.119677599999704,24.61951489999774,24.602796799998032,24.602796799998032,24.90259589999914,25.32005670000217,right,1.5,1,1,0.7128853999893181,1,001,2025-09-03_11h47.19.107,adaptive__staircase,,2025.1.1,59.988974028165956,2025-09-03 11h47.29.033249 +0530,
22,0.5,1.5,25.336001400006353,,25.320370600005845,25.336001400006353,25.83636890001071,25.819640400004573,25.819640400004573,26.119482599999174,26.23669800000789,left,-1.5,1,1,0.4020347000041511,1,001,2025-09-03_11h47.19.107,adaptive__staircase,,2025.1.1,59.988974028165956,2025-09-03 11h47.29.033249 +0530,
23,0.5,1.0,26.252762800009805,,26.23697890000767,26.252762800009805,26.752924500004156,26.736286200000905,26.736286200000905,27.036174499997287,27.13646160000644,left,-1.0,0,0,0.39568630000576377,1,001,2025-09-03_11h47.19.107,adaptive__staircase,,2025.1.1,59.988974028165956,2025-09-03 11h47.29.033249 +0530,
24,0.5,1.5,27.152737600001274,,27.136659900002996,27.152737600001274,27.652869099998497,27.63630430000194,27.63630430000194,27.936080200001015,28.153282500003115,right,1.5,1,1,0.5006531999970321,1,001,2025-09-03_11h47.19.107,adaptive__staircase,,2025.1.1,59.988974028165956,2025-09-03 11h47.29.033249 +0530,
25,0.5,1.5,28.16940520000935,,28.15355470000941,28.16940520000935,28.669569999998203,28.652838200010592,28.652838200010592,28.95274030001019,30.303330199996708,left,-1.5,1,1,1.6397462000022642,1,001,2025-09-03_11h47.19.107,adaptive__staircase,,2025.1.1,59.988974028165956,2025-09-03 11h47.29.033249 +0530,
26,0.5,1.5,30.319012500011013,,30.303671600006055,30.319012500011013,30.819274100009352,30.802730800001882,30.802730800001882,31.102667200000724,31.18664230000286,right,1.5,1,1,0.3805436999973608,1,001,2025-09-03_11h47.19.107,adaptive__staircase,,2025.1.1,59.988974028165956,2025-09-03 11h47.29.033249 +0530,
27,0.5,1.0,31.202629400009755,,31.186909500000183,31.202629400009755,31.703763500001514,31.686034199999995,31.686034199999995,31.985916300007375,32.26942500000587,left,-1.0,1,1,0.5769704999984242,1,001,2025-09-03_11h47.19.107,adaptive__staircase,,2025.1.1,59.988974028165956,2025-09-03 11h47.29.033249 +0530,
28,0.5,1.0,32.285826799998176,,32.269650900008855,32.285826799998176,32.78583059999801,32.76916820000042,32.76916820000042,33.06908899999689,33.40304279999691,left,-1.0,1,1,0.6316089999891119,1,001,2025-09-03_11h47.19.107,adaptive__staircase,,2025.1.1,59.988974028165956,2025-09-03 11h47.29.033249 +0530,
29,0.5,1.0,33.41913170000771,,33.40332650000346,33.41913170000771,33.91908370000601,33.90270040000905,33.90270040000905,34.20265510000172,34.669139400008135,left,-1.0,1,1,0.7604401999997208,1,001,2025-09-03_11h47.19.107,adaptive__staircase,,2025.1.1,59.988974028165956,2025-09-03 11h47.29.033249 +0530,
30,0.5,1.0,34.685522700005095,,34.66930680000223,34.685522700005095,35.1857386000047,35.16899960000592,35.16899960000592,35.4689747000084,35.836234900009,left,-1.0,1,1,0.6624860000010813,1,001,2025-09-03_11h47.19.107,adaptive__staircase,,2025.1.1,59.988974028165956,2025-09-03 11h47.29.033249 +0530,
31,0.5,1.0,35.85244070000772,,35.83649319999677,35.85244070000772,36.35261410000385,36.33581090001098,36.33581090001098,36.635562700001174,36.81941260000167,left,-1.0,1,1,0.4712048999936087,1,001,2025-09-03_11h47.19.107,adaptive__staircase,,2025.1.1,59.988974028165956,2025-09-03 11h47.29.033249 +0530,
32,0.5,1.0,36.83565890000318,,36.81964080000762,36.83565890000318,37.33580020000227,37.31897530000424,37.31897530000424,37.618763000005856,37.90282119999756,left,-1.0,1,1,0.5712365000072168,1,001,2025-09-03_11h47.19.107,adaptive__staircase,,2025.1.1,59.988974028165956,2025-09-03 11h47.29.033249 +0530,
33,0.5,1.0,37.91867680000723,,37.90318120000302,37.91867680000723,38.41891350000515,38.4023051999975,38.4023051999975,38.702249299996765,38.86949209999875,left,-1.0,1,1,0.45522170000185724,1,001,2025-09-03_11h47.19.107,adaptive__staircase,,2025.1.1,59.988974028165956,2025-09-03 11h47.29.033249 +0530,
34,0.5,1.0,38.88559070001065,,38.869748099998105,38.88559070001065,39.38542469999811,39.38542469999811,39.38542469999811,39.6854800000001,39.952662199997576,left,-1.0,1,1,0.5594679000059841,1,001,2025-09-03_11h47.19.107,adaptive__staircase,,2025.1.1,59.988974028165956,2025-09-03 11h47.29.033249 +0530,
35,0.5,1.0,39.968851199999335,,39.952866699997685,39.968851199999335,40.4689051000023,40.452241799997864,40.452241799997864,40.75200990001031,41.01924059999874,right,1.0,0,0,0.5540817999863066,1,001,2025-09-03_11h47.19.107,adaptive__staircase,,2025.1.1,59.988974028165956,2025-09-03 11h47.29.033249 +0530,
36,0.5,1.5,41.03535040000861,,41.01958680000098,41.03535040000861,41.53555149999738,41.51885020000918,41.51885020000918,41.818647300009616,41.952277400007006,right,1.5,0,0,0.41814850000082515,1,001,2025-09-03_11h47.19.107,adaptive__staircase,,2025.1.1,59.988974028165956,2025-09-03 11h47.29.033249 +0530,
37,0.5,2.0,41.96869520000473,,41.95245120000618,41.96869520000473,42.46852789999684,42.4521967000037,42.4521967000037,42.7520177999977,43.285857800001395,right,2.0,1,1,0.8268344000098296,1,001,2025-09-03_11h47.19.107,adaptive__staircase,,2025.1.1,59.988974028165956,2025-09-03 11h47.29.033249 +0530,
38,0.5,2.0,43.301997200003825,,43.28608940000413,43.301997200003825,43.80186550000508,43.78531390000717,43.78531390000717,44.08519850000448,44.7526222000015,right,2.0,1,1,0.9532690000050934,1,001,2025-09-03_11h47.19.107,adaptive__staircase,,2025.1.1,59.988974028165956,2025-09-03 11h47.29.033249 +0530,
39,0.5,2.0,44.76857529999688,,44.75289869999688,44.76857529999688,45.26858920000086,45.25202290000743,45.25202290000743,45.551891900002374,45.80201520000992,right,2.0,1,1,0.5376916999957757,1,001,2025-09-03_11h47.19.107,adaptive__staircase,,2025.1.1,59.988974028165956,2025-09-03 11h47.29.033249 +0530,
40,0.5,1.5,45.81848300001002,,45.80229120000149,45.81848300001002,46.31852169999911,46.301826000009896,46.301826000009896,46.601693900011014,46.818895500007784,right,1.5,0,0,0.5057109000044875,1,001,2025-09-03_11h47.19.107,adaptive__staircase,,2025.1.1,59.988974028165956,2025-09-03 11h47.29.033249 +0530,
41,0.5,2.0,46.83522809999704,,46.81912939999893,46.83522809999704,47.33521240000846,47.31845990000875,47.31845990000875,47.618350800010376,48.60216809999838,right,2.0,1,1,1.276146999996854,1,001,2025-09-03_11h47.19.107,adaptive__staircase,,2025.1.1,59.988974028165956,2025-09-03 11h47.29.033249 +0530,
42,0.5,2.0,48.61833320000733,,48.60243260000425,48.61833320000733,49.11839800000598,49.101926100003766,49.101926100003766,49.401717800006736,49.76904410000134,left,-2.0,1,1,0.6660196000011638,1,001,2025-09-03_11h47.19.107,adaptive__staircase,,2025.1.1,59.988974028165956,2025-09-03 11h47.29.033249 +0530,
43,0.5,2.0,49.78488770000695,,49.76932279999892,49.78488770000695,50.285037299996475,50.26826759999676,50.26826759999676,50.56823499999882,50.71881830001075,left,-2.0,1,1,0.4459064999973634,1,001,2025-09-03_11h47.19.107,adaptive__staircase,,2025.1.1,59.988974028165956,2025-09-03 11h47.29.033249 +0530,
44,0.5,1.5,50.73484889999963,,50.719086800003424,50.73484889999963,51.23505630000727,51.21834740000486,51.21834740000486,51.518228600005386,52.018334400010644,left,-1.5,1,1,0.7990242000087164,1,001,2025-09-03_11h47.19.107,adaptive__staircase,,2025.1.1,59.988974028165956,2025-09-03 11h47.29.033249 +0530,
45,0.5,1.5,52.034692600005656,,52.01852379999764,52.034692600005656,52.53505000000587,52.518334499996854,52.518334499996854,52.818204800001695,52.90195150001091,right,1.5,1,1,0.37495620000117924,1,001,2025-09-03_11h47.19.107,adaptive__staircase,,2025.1.1,59.988974028165956,2025-09-03 11h47.29.033249 +0530,
46,0.5,1.5,52.91813450001064,,52.90217310001026,52.91813450001064,53.41817900000024,53.40149210000527,53.40149210000527,53.70151330000954,53.86869719999959,left,-1.5,1,1,0.45090179999533575,1,001,2025-09-03_11h47.19.107,adaptive__staircase,,2025.1.1,59.988974028165956,2025-09-03 11h47.29.033249 +0530,
47,0.5,1.0,53.884619800010114,,53.8690687000053,53.884619800010114,54.38479599999846,54.368281800008845,54.368281800008845,54.66794260000461,54.951963100000285,left,-1.0,1,1,0.5728287999954773,1,001,2025-09-03_11h47.19.107,adaptive__staircase,,2025.1.1,59.988974028165956,2025-09-03 11h47.29.033249 +0530,
48,0.5,1.0,54.96874830000161,,54.952245599997696,54.96874830000161,55.46822690000408,55.451393099996494,55.451393099996494,55.75145570001041,56.05202260000806,left,-1.0,1,1,0.589680999997654,1,001,2025-09-03_11h47.19.107,adaptive__staircase,,2025.1.1,59.988974028165956,2025-09-03 11h47.29.033249 +0530,
49,0.5,1.0,56.067975800004206,,56.052370899997186,56.067975800004206,56.5680815000087,56.55141110000841,56.55141110000841,56.851407900001504,56.96873310000228,right,1.0,0,0,0.4160954999970272,1,001,2025-09-03_11h47.19.107,adaptive__staircase,,2025.1.1,59.988974028165956,2025-09-03 11h47.29.033249 +0530,
50,0.5,1.5,56.98472269999911,,56.9690205000079,56.98472269999911,57.48459140000341,57.48459140000341,57.48459140000341,,57.73483470000792,right,1.5,1,1,0.23889449999842327,1,001,2025-09-03_11h47.19.107,adaptive__staircase,,2025.1.1,59.988974028165956,2025-09-03 11h47.29.033249 +0530,
51,0.5,1.5,57.75112760000047,,57.73494229999778,57.75112760000047,58.251322099997196,58.23456560001068,58.23456560001068,58.5343947000074,61.00165070001094,right,1.5,0,0,2.7581842000072356,1,001,2025-09-03_11h47.19.107,adaptive__staircase,,2025.1.1,59.988974028165956,2025-09-03 11h47.29.033249 +0530,
52,0.5,2.0,61.017734799999744,,61.001937100008945,61.017734799999744,61.517900899998494,61.50138600000355,61.50138600000355,61.80078780000622,62.11831469999743,left,-2.0,1,1,0.5997131000040099,1,001,2025-09-03_11h47.19.107,adaptive__staircase,,2025.1.1,59.988974028165956,2025-09-03 11h47.29.033249 +0530,
53,0.5,2.0,62.13445280000451,,62.11859589999949,62.13445280000451,62.6342355000088,62.61747560001095,62.61747560001095,62.917396999997436,63.20117040000332,left,-2.0,1,1,0.5749091000034241,1,001,2025-09-03_11h47.19.107,adaptive__staircase,,2025.1.1,59.988974028165956,2025-09-03 11h47.29.033249 +0530,
54,0.5,2.0,63.21760180000274,,63.201327200004016,63.21760180000274,63.71770190000825,63.70098609999695,63.70098609999695,64.0008283000061,64.10121100000106,right,2.0,1,1,0.38337630000023637,1,001,2025-09-03_11h47.19.107,adaptive__staircase,,2025.1.1,59.988974028165956,2025-09-03 11h47.29.033249 +0530,
55,0.5,1.5,64.11737800000992,,64.10140660000616,64.11737800000992,64.61743440000282,64.60075979999965,64.60075979999965,64.90091229999962,65.06809280000743,left,-1.5,1,1,0.4527451000030851,1,001,2025-09-03_11h47.19.107,adaptive__staircase,,2025.1.1,59.988974028165956,2025-09-03 11h47.29.033249 +0530,
56,0.5,1.5,65.08431190000556,,65.06838419999985,65.08431190000556,65.58432280000125,65.5676422000106,65.5676422000106,65.86751019999792,66.05147859999852,right,1.5,1,1,0.4723202000022866,1,001,2025-09-03_11h47.19.107,adaptive__staircase,,2025.1.1,59.988974028165956,2025-09-03 11h47.29.033249 +0530,
57,0.5,1.5,66.0675298999995,,66.0517392000038,66.0675298999995,66.56756090000272,66.55094450000615,66.55094450000615,66.85066130000632,67.01757290000387,right,1.5,1,1,0.46489680001104716,1,001,2025-09-03_11h47.19.107,adaptive__staircase,,2025.1.1,59.988974028165956,2025-09-03 11h47.29.033249 +0530,
58,0.5,1.0,67.0338885000092,,67.01774950000981,67.0338885000092,67.53406220000761,67.51744880000479,67.51744880000479,67.81745980000414,67.98466500001086,left,-1.0,1,1,0.4597146000014618,1,001,2025-09-03_11h47.19.107,adaptive__staircase,,2025.1.1,59.988974028165956,2025-09-03 11h47.29.033249 +0530,
59,0.5,1.0,68.0008863999974,,67.98491120000836,68.0008863999974,68.50094710000849,68.48418830000446,68.48418830000446,68.78388230000564,68.91787730000215,right,1.0,1,1,0.42888370000582654,1,001,2025-09-03_11h47.19.107,adaptive__staircase,,2025.1.1,59.988974028165956,2025-09-03 11h47.29.033249 +0530,
60,0.5,1.0,68.93382330000168,,68.91809570000623,68.93382330000168,69.43406460000551,69.41756870000972,69.41756870000972,69.71733700000914,69.90114110001014,right,1.0,0,0,0.4819469000067329,1,001,2025-09-03_11h47.19.107,adaptive__staircase,,2025.1.1,59.988974028165956,2025-09-03 11h47.29.033249 +0530,
61,0.5,1.5,69.91730420000385,,69.90138870000374,69.91730420000385,70.41739339999913,70.40072420000797,70.40072420000797,70.70072380000784,71.2345667000045,right,1.5,1,1,0.8229810000048019,1,001,2025-09-03_11h47.19.107,adaptive__staircase,,2025.1.1,59.988974028165956,2025-09-03 11h47.29.033249 +0530,
62,0.5,1.5,71.25069369999983,,71.23482820000208,71.25069369999983,71.75076380000974,71.73395310000342,71.73395310000342,72.03397940000286,72.21734889999789,left,-1.5,1,1,0.4708554999961052,1,001,2025-09-03_11h47.19.107,adaptive__staircase,,2025.1.1,59.988974028165956,2025-09-03 11h47.29.033249 +0530,
63,0.5,1.5,72.23393329999817,,72.21752410000772,72.23393329999817,72.73398849999649,72.71719200001098,72.71719200001098,73.01698670000769,73.33446589999949,left,-1.5,1,1,0.6060278000077233,1,001,2025-09-03_11h47.19.107,adaptive__staircase,,2025.1.1,59.988974028165956,2025-09-03 11h47.29.033249 +0530,
64,0.5,1.0,73.35059170000022,,73.33472320000874,73.35059170000022,73.85061190000852,73.8341092000046,73.8341092000046,74.13399119999667,74.2340802000108,right,1.0,1,1,0.3974043999915011,1,001,2025-09-03_11h47.19.107,adaptive__staircase,,2025.1.1,59.988974028165956,2025-09-03 11h47.29.033249 +0530,
65,0.5,1.0,74.25019940000493,,74.23423060000641,74.25019940000493,74.75055940001039,74.73373320000246,74.73373320000246,75.03358220000518,75.4844468000083,right,1.0,1,1,0.7460554999997839,1,001,2025-09-03_11h47.19.107,adaptive__staircase,,2025.1.1,59.988974028165956,2025-09-03 11h47.29.033249 +0530,
66,0.5,1.0,75.5004792999971,,75.48471200000495,75.5004792999971,76.00058269999863,75.98400959999708,75.98400959999708,76.28390740000759,76.950574100003,right,1.0,1,1,0.9547738999972353,1,001,2025-09-03_11h47.19.107,adaptive__staircase,,2025.1.1,59.988974028165956,2025-09-03 11h47.29.033249 +0530,
67,0.5,1.0,76.96680680000281,,76.95081799999753,76.96680680000281,77.466926100009,77.45013789999939,77.45013789999939,77.75007090000145,78.13415209999948,right,1.0,1,1,0.6716388999921037,1,001,2025-09-03_11h47.19.107,adaptive__staircase,,2025.1.1,59.988974028165956,2025-09-03 11h47.29.033249 +0530,
68,0.5,1.0,78.1502857000014,,78.13445389999833,78.1502857000014,78.6502271000063,78.6337222000002,78.6337222000002,78.93370439999853,79.15098030000809,right,1.0,1,1,0.5000676000054227,1,001,2025-09-03_11h47.19.107,adaptive__staircase,,2025.1.1,59.988974028165956,2025-09-03 11h47.29.033249 +0530,
69,0.5,1.0,79.16686789999949,,79.15126690000761,79.16686789999949,79.66692820000753,79.65035300000454,79.65035300000454,79.95027040000423,80.25056980000227,right,1.0,1,1,0.5911104999977397,1,001,2025-09-03_11h47.19.107,adaptive__staircase,,2025.1.1,59.988974028165956,2025-09-03 11h47.29.033249 +0530,
70,0.5,1.0,80.2664577000105,,80.25075000000652,80.2664577000105,80.7667963999993,80.7502819000074,80.7502819000074,81.04998150000756,81.30033710000862,left,-1.0,1,1,0.536929499998223,1,001,2025-09-03_11h47.19.107,adaptive__staircase,,2025.1.1,59.988974028165956,2025-09-03 11h47.29.033249 +0530,
71,0.5,1.0,81.3166743000038,,81.30046330000914,81.3166743000038,81.81662820000201,81.79989520000527,81.79989520000527,82.10007970000152,82.41684710000118,right,1.0,1,1,0.6147068999998737,1,001,2025-09-03_11h47.19.107,adaptive__staircase,,2025.1.1,59.988974028165956,2025-09-03 11h47.29.033249 +0530,
72,0.5,1.0,82.43330679999781,,82.41701270001067,82.43330679999781,82.93314039999677,82.91664470000251,82.91664470000251,83.21643549999862,83.45004389999667,right,1.0,1,1,0.5244558999984292,1,001,2025-09-03_11h47.19.107,adaptive__staircase,,2025.1.1,59.988974028165956,2025-09-03 11h47.29.033249 +0530,
73,0.5,1.0,83.46672730000864,,83.45017380001082,83.46672730000864,83.96684860000096,83.95018410000193,83.95018410000193,84.24991710000904,84.45053550000011,left,-1.0,1,1,0.49342929999693297,1,001,2025-09-03_11h47.19.107,adaptive__staircase,,2025.1.1,59.988974028165956,2025-09-03 11h47.29.033249 +0530,
74,0.5,1.0,84.4665260000038,,84.45076469999913,84.4665260000038,84.96669110000948,84.94996610000089,84.94996610000089,85.24960779999674,85.58382870000787,left,-1.0,1,1,0.631062500004191,1,001,2025-09-03_11h47.19.107,adaptive__staircase,,2025.1.1,59.988974028165956,2025-09-03 11h47.29.033249 +0530,
75,0.5,1.0,85.59998050000286,,85.58411710000655,85.59998050000286,86.10006670000439,86.0834016000008,86.0834016000008,86.38299790000019,86.60008099999686,left,-1.0,1,1,0.5084682999877259,1,001,2025-09-03_11h47.19.107,adaptive__staircase,,2025.1.1,59.988974028165956,2025-09-03 11h47.29.033249 +0530,
76,0.5,1.0,86.61622520000674,,86.6002448000072,86.61622520000674,87.11649860000762,87.10001950000878,87.10001950000878,87.39959030000318,87.75054110000201,left,-1.0,1,1,0.6374961999972584,1,001,2025-09-03_11h47.19.107,adaptive__staircase,,2025.1.1,59.988974028165956,2025-09-03 11h47.29.033249 +0530,
77,0.5,1.0,87.76639960000466,,87.75094650000392,87.76639960000466,88.26600180000241,88.26600180000241,88.26600180000241,88.56636440000148,88.98360110000067,right,1.0,1,1,0.7146862000081455,1,001,2025-09-03_11h47.19.107,adaptive__staircase,,2025.1.1,59.988974028165956,2025-09-03 11h47.29.033249 +0530,
78,0.5,1.0,88.99967380000453,,88.98384700001043,88.99967380000453,89.49992650000786,89.4831961000018,89.4831961000018,89.78265039999678,89.93358550000994,left,-1.0,1,1,0.4484928000019863,1,001,2025-09-03_11h47.19.107,adaptive__staircase,,2025.1.1,59.988974028165956,2025-09-03 11h47.29.033249 +0530,
79,0.5,1.0,89.94974229999934,,89.93387439999788,89.94974229999934,90.44972760000383,90.43326479999814,90.43326479999814,90.73308089999773,90.86669120000442,right,1.0,1,1,0.4253746000031242,1,001,2025-09-03_11h47.19.107,adaptive__staircase,,2025.1.1,59.988974028165956,2025-09-03 11h47.29.033249 +0530,
80,0.5,1.0,90.88283230000525,,90.86700700000802,90.88283230000525,91.38294789999782,91.36640210000041,91.36640210000041,91.66601690000971,91.8667024000024,left,-1.0,1,1,0.49856520000321325,1,001,2025-09-03_11h47.19.107,adaptive__staircase,,2025.1.1,59.988974028165956,2025-09-03 11h47.29.033249 +0530,
81,0.5,1.0,91.88283339999907,,91.86698820001038,91.88283339999907,92.3829917999974,92.3663033000048,92.3663033000048,92.66622400000051,92.76661990000866,right,1.0,1,1,0.39821389999997336,1,001,2025-09-03_11h47.19.107,adaptive__staircase,,2025.1.1,59.988974028165956,2025-09-03 11h47.29.033249 +0530,
82,0.5,1.0,92.78267480000795,,92.76693779999914,92.78267480000795,93.28302689999691,93.26629949999915,93.26629949999915,,93.50038209999911,left,-1.0,1,1,0.22381250000034925,1,001,2025-09-03_11h47.19.107,adaptive__staircase,,2025.1.1,59.988974028165956,2025-09-03 11h47.29.033249 +0530,
83,0.5,1.0,93.51610900000378,,93.50072789999831,93.51610900000378,94.01616660000582,93.99964930000715,93.99964930000715,94.29951150000852,94.40003350000188,right,1.0,1,1,0.39524579999851994,1,001,2025-09-03_11h47.19.107,adaptive__staircase,,2025.1.1,59.988974028165956,2025-09-03 11h47.29.033249 +0530,
84,0.5,1.0,94.4160380000103,,94.4003195999976,94.4160380000103,94.91616999999678,94.89952420000918,94.89952420000918,95.19953150000947,95.53293240000494,right,1.0,1,1,0.6194527000043308,1,001,2025-09-03_11h47.19.107,adaptive__staircase,,2025.1.1,59.988974028165956,2025-09-03 11h47.29.033249 +0530,
85,0.5,1.0,95.54932679999911,,95.53308550000656,95.54932679999911,96.04940170000191,96.03276729999925,96.03276729999925,96.33275990000402,96.51654890000646,right,1.0,1,1,0.476929199998267,1,001,2025-09-03_11h47.19.107,adaptive__staircase,,2025.1.1,59.988974028165956,2025-09-03 11h47.29.033249 +0530,
86,0.5,1.0,96.5327052000066,,96.51680450000276,96.5327052000066,97.03276519999781,97.01611430000048,97.01611430000048,97.31597930000862,97.60001720000582,right,1.0,0,0,0.5663647000037599,1,001,2025-09-03_11h47.19.107,adaptive__staircase,,2025.1.1,59.988974028165956,2025-09-03 11h47.29.033249 +0530,
87,0.5,1.5,97.61599340000248,,97.60030960000586,97.61599340000248,98.11591310000222,98.09954180000932,98.09954180000932,98.39915769999789,98.69981600000756,right,1.5,1,1,0.5894590000098106,1,001,2025-09-03_11h47.19.107,adaptive__staircase,,2025.1.1,59.988974028165956,2025-09-03 11h47.29.033249 +0530,
88,0.5,1.5,98.71591759999865,,98.70002329999988,98.71591759999865,99.21552120000706,99.19894420000492,99.19894420000492,99.49898669999675,100.83334199999808,left,-1.5,0,0,1.6219224000087706,1,001,2025-09-03_11h47.19.107,adaptive__staircase,,2025.1.1,59.988974028165956,2025-09-03 11h47.29.033249 +0530,
89,0.5,2.0,100.84923210000852,,100.83363609999651,100.84923210000852,101.34934480000811,101.34934480000811,101.34934480000811,101.64914280000085,101.9496397000039,left,-2.0,0,0,0.5884536999947159,1,001,2025-09-03_11h47.19.107,adaptive__staircase,,2025.1.1,59.988974028165956,2025-09-03 11h47.29.033249 +0530,
90,0.5,2.5,101.96576790000836,,101.94992670000647,101.96576790000836,102.4657009000075,102.44925800000783,102.44925800000783,102.74900300000445,104.1158473000105,left,-2.5,1,1,1.6529231000022264,1,001,2025-09-03_11h47.19.107,adaptive__staircase,,2025.1.1,59.988974028165956,2025-09-03 11h47.29.033249 +0530,
91,0.5,2.5,104.13228890000028,,104.11602210000274,104.13228890000028,104.6325252000097,104.61544760000834,104.61544760000834,104.91532670000743,105.19962870000745,right,2.5,1,1,0.5750266999966698,1,001,2025-09-03_11h47.19.107,adaptive__staircase,,2025.1.1,59.988974028165956,2025-09-03 11h47.29.033249 +0530,
92,0.5,2.5,105.21565290000581,,105.19989760000317,105.21565290000581,105.71560419999878,105.69903960000374,105.69903960000374,105.9990140000009,106.11627220000082,left,-2.5,1,1,0.4102188999968348,1,001,2025-09-03_11h47.19.107,adaptive__staircase,,2025.1.1,59.988974028165956,2025-09-03 11h47.29.033249 +0530,
93,0.5,2.0,106.13199780001014,,106.11666749999858,106.13199780001014,106.63227030000417,106.61563630000455,106.61563630000455,106.91548100000364,107.09982930000115,right,2.0,1,1,0.47999319998780265,1,001,2025-09-03_11h47.19.107,adaptive__staircase,,2025.1.1,59.988974028165956,2025-09-03 11h47.29.033249 +0530,
94,0.5,2.0,107.11549110000487,,107.1000958000077,107.11549110000487,107.61570730000676,107.61570730000676,107.61570730000676,107.91520860001037,108.14924430000247,right,2.0,1,1,0.5318640000041341,1,001,2025-09-03_11h47.19.107,adaptive__staircase,,2025.1.1,59.988974028165956,2025-09-03 11h47.29.033249 +0530,
95,0.5,2.0,108.16528030000336,,108.1494864999986,108.16528030000336,108.66526870000234,108.64889989999938,108.64889989999938,108.94876189999923,109.19935460000124,right,2.0,1,1,0.5396745000034571,1,001,2025-09-03_11h47.19.107,adaptive__staircase,,2025.1.1,59.988974028165956,2025-09-03 11h47.29.033249 +0530,
96,0.5,1.5,109.21538770000916,,109.1996564000001,109.21538770000916,109.71549980000418,109.69891750000534,109.69891750000534,109.99836949999735,110.41587060000165,left,-1.5,1,1,0.7022293999907561,1,001,2025-09-03_11h47.19.107,adaptive__staircase,,2025.1.1,59.988974028165956,2025-09-03 11h47.29.033249 +0530,
97,0.5,1.5,110.43210810000892,,110.41610080000828,110.43210810000892,110.9320599000057,110.91539989999728,110.91539989999728,111.21508750000794,111.69883020000998,left,-1.5,1,1,0.7739982999919448,1,001,2025-09-03_11h47.19.107,adaptive__staircase,,2025.1.1,59.988974028165956,2025-09-03 11h47.29.033249 +0530,
98,0.5,1.5,111.7152502000099,,111.69901430000027,111.7152502000099,112.2153346999985,112.19859850000648,112.19859850000648,112.498445300007,112.76558730000397,right,1.5,1,1,0.5630411000020104,1,001,2025-09-03_11h47.19.107,adaptive__staircase,,2025.1.1,59.988974028165956,2025-09-03 11h47.29.033249 +0530,
99,0.5,1.0,112.7818077999982,,112.76583960000426,112.7818077999982,113.28207549999934,113.26536440000928,113.26536440000928,113.56517440000607,113.94879629999923,right,1.0,1,1,0.6744794999976875,1,001,2025-09-03_11h47.19.107,adaptive__staircase,,2025.1.1,59.988974028165956,2025-09-03 11h47.29.033249 +0530,
